condition,_loop_noises.thisRepN,_loop_noises.thisTrialN,_loop_noises.thisN,_loop_noises.thisIndex,_loop_lists.thisRepN,_loop_lists.thisTrialN,_loop_lists.thisN,_loop_lists.thisIndex,_loop_words.thisRepN,_loop_words.thisTrialN,_loop_words.thisN,_loop_words.thisIndex,__instructions.started,__instructions.stopped,__continue.keys,__continue.rt,__continue.started,__continue.stopped,text.started,text.stopped,key_resp.keys,key_resp.rt,key_resp.started,key_resp.stopped,participant,session,date,expName,psychopyVersion,frameRate,
,,,,,,,,,,,,,8.365884855000331,None,space,1.8628534690005836,8.365884855000331,None,,,,,,,,001,2020_Feb_03_2125,ominoise_main,3.2.4,59.98056329851662,
condition 3,0,0,0,2,0,0,0,0,0,0,0,0,,,,,,,10.265681570000197,None,space,1.4504375520000394,10.265681570000197,None,,001,2020_Feb_03_2125,ominoise_main,3.2.4,59.98056329851662,
condition 3,0,0,0,2,0,0,0,0,1,0,1,0,,,,,,,,,,,,,,001,2020_Feb_03_2125,ominoise_main,3.2.4,59.98056329851662,
condition 3,0,0,0,2,0,0,0,0,2,0,2,0,,,,,,,,,,,,,,001,2020_Feb_03_2125,ominoise_main,3.2.4,59.98056329851662,
condition 3,0,0,0,2,0,0,0,0,3,0,3,0,,,,,,,,,,,,,,001,2020_Feb_03_2125,ominoise_main,3.2.4,59.98056329851662,
condition 3,0,0,0,2,0,0,0,0,4,0,4,0,,,,,,,,,,,,,,001,2020_Feb_03_2125,ominoise_main,3.2.4,59.98056329851662,
condition 3,0,0,0,2,0,0,0,0,,,,,,,,,,,,,,,,,,001,2020_Feb_03_2125,ominoise_main,3.2.4,59.98056329851662,
condition 3,0,0,0,2,1,0,1,0,0,0,0,0,,,,,,,,,,,,,,001,2020_Feb_03_2125,ominoise_main,3.2.4,59.98056329851662,
condition 3,0,0,0,2,1,0,1,0,1,0,1,0,,,,,,,,,,,,,,001,2020_Feb_03_2125,ominoise_main,3.2.4,59.98056329851662,
condition 3,0,0,0,2,1,0,1,0,2,0,2,0,,,,,,,,,,,,,,001,2020_Feb_03_2125,ominoise_main,3.2.4,59.98056329851662,
condition 3,0,0,0,2,1,0,1,0,3,0,3,0,,,,,,,,,,,,,,001,2020_Feb_03_2125,ominoise_main,3.2.4,59.98056329851662,
condition 3,0,0,0,2,1,0,1,0,4,0,4,0,,,,,,,,,,,,,,001,2020_Feb_03_2125,ominoise_main,3.2.4,59.98056329851662,
condition 3,0,0,0,2,1,0,1,0,,,,,,,,,,,,,,,,,,001,2020_Feb_03_2125,ominoise_main,3.2.4,59.98056329851662,
condition 3,0,0,0,2,2,0,2,0,0,0,0,0,,,,,,,,,,,,,,001,2020_Feb_03_2125,ominoise_main,3.2.4,59.98056329851662,
condition 3,0,0,0,2,2,0,2,0,1,0,1,0,,,,,,,,,,,,,,001,2020_Feb_03_2125,ominoise_main,3.2.4,59.98056329851662,
condition 3,0,0,0,2,2,0,2,0,2,0,2,0,,,,,,,,,,,,,,001,2020_Feb_03_2125,ominoise_main,3.2.4,59.98056329851662,
condition 3,0,0,0,2,2,0,2,0,3,0,3,0,,,,,,,,,,,,,,001,2020_Feb_03_2125,ominoise_main,3.2.4,59.98056329851662,
condition 3,0,0,0,2,2,0,2,0,4,0,4,0,,,,,,,,,,,,,,001,2020_Feb_03_2125,ominoise_main,3.2.4,59.98056329851662,
condition 3,0,0,0,2,2,0,2,0,,,,,,,,,,,,,,,,,,001,2020_Feb_03_2125,ominoise_main,3.2.4,59.98056329851662,
condition 3,0,0,0,2,3,0,3,0,0,0,0,0,,,,,,,,,,,,,,001,2020_Feb_03_2125,ominoise_main,3.2.4,59.98056329851662,
condition 3,0,0,0,2,3,0,3,0,1,0,1,0,,,,,,,,,,,,,,001,2020_Feb_03_2125,ominoise_main,3.2.4,59.98056329851662,
condition 3,0,0,0,2,3,0,3,0,2,0,2,0,,,,,,,,,,,,,,001,2020_Feb_03_2125,ominoise_main,3.2.4,59.98056329851662,
condition 3,0,0,0,2,3,0,3,0,3,0,3,0,,,,,,,,,,,,,,001,2020_Feb_03_2125,ominoise_main,3.2.4,59.98056329851662,
condition 3,0,0,0,2,3,0,3,0,4,0,4,0,,,,,,,,,,,,,,001,2020_Feb_03_2125,ominoise_main,3.2.4,59.98056329851662,
condition 3,0,0,0,2,3,0,3,0,,,,,,,,,,,,,,,,,,001,2020_Feb_03_2125,ominoise_main,3.2.4,59.98056329851662,
condition 3,0,0,0,2,4,0,4,0,0,0,0,0,,,,,,,,,,,,,,001,2020_Feb_03_2125,ominoise_main,3.2.4,59.98056329851662,
condition 3,0,0,0,2,4,0,4,0,1,0,1,0,,,,,,,,,,,,,,001,2020_Feb_03_2125,ominoise_main,3.2.4,59.98056329851662,
condition 3,0,0,0,2,4,0,4,0,2,0,2,0,,,,,,,,,,,,,,001,2020_Feb_03_2125,ominoise_main,3.2.4,59.98056329851662,
condition 3,0,0,0,2,4,0,4,0,3,0,3,0,,,,,,,,,,,,,,001,2020_Feb_03_2125,ominoise_main,3.2.4,59.98056329851662,
condition 3,0,0,0,2,4,0,4,0,4,0,4,0,,,,,,,,,,,,,,001,2020_Feb_03_2125,ominoise_main,3.2.4,59.98056329851662,
condition 3,0,0,0,2,4,0,4,0,,,,,,,,,,,,,,,,,,001,2020_Feb_03_2125,ominoise_main,3.2.4,59.98056329851662,
condition 3,0,0,0,2,,,,,,,,,,,,,,,,,,,,,,001,2020_Feb_03_2125,ominoise_main,3.2.4,59.98056329851662,
condition 2,0,1,1,1,0,0,0,0,0,0,0,0,,,,,,,11.76596092300042,None,space,0.4651213249999273,11.76596092300042,None,,001,2020_Feb_03_2125,ominoise_main,3.2.4,59.98056329851662,
condition 2,0,1,1,1,0,0,0,0,1,0,1,0,,,,,,,,,,,,,,001,2020_Feb_03_2125,ominoise_main,3.2.4,59.98056329851662,
condition 2,0,1,1,1,0,0,0,0,2,0,2,0,,,,,,,,,,,,,,001,2020_Feb_03_2125,ominoise_main,3.2.4,59.98056329851662,
condition 2,0,1,1,1,0,0,0,0,3,0,3,0,,,,,,,,,,,,,,001,2020_Feb_03_2125,ominoise_main,3.2.4,59.98056329851662,
condition 2,0,1,1,1,0,0,0,0,4,0,4,0,,,,,,,,,,,,,,001,2020_Feb_03_2125,ominoise_main,3.2.4,59.98056329851662,
condition 2,0,1,1,1,0,0,0,0,,,,,,,,,,,,,,,,,,001,2020_Feb_03_2125,ominoise_main,3.2.4,59.98056329851662,
condition 2,0,1,1,1,1,0,1,0,0,0,0,0,,,,,,,,,,,,,,001,2020_Feb_03_2125,ominoise_main,3.2.4,59.98056329851662,
condition 2,0,1,1,1,1,0,1,0,1,0,1,0,,,,,,,,,,,,,,001,2020_Feb_03_2125,ominoise_main,3.2.4,59.98056329851662,
condition 2,0,1,1,1,1,0,1,0,2,0,2,0,,,,,,,,,,,,,,001,2020_Feb_03_2125,ominoise_main,3.2.4,59.98056329851662,
condition 2,0,1,1,1,1,0,1,0,3,0,3,0,,,,,,,,,,,,,,001,2020_Feb_03_2125,ominoise_main,3.2.4,59.98056329851662,
condition 2,0,1,1,1,1,0,1,0,4,0,4,0,,,,,,,,,,,,,,001,2020_Feb_03_2125,ominoise_main,3.2.4,59.98056329851662,
condition 2,0,1,1,1,1,0,1,0,,,,,,,,,,,,,,,,,,001,2020_Feb_03_2125,ominoise_main,3.2.4,59.98056329851662,
condition 2,0,1,1,1,2,0,2,0,0,0,0,0,,,,,,,,,,,,,,001,2020_Feb_03_2125,ominoise_main,3.2.4,59.98056329851662,
condition 2,0,1,1,1,2,0,2,0,1,0,1,0,,,,,,,,,,,,,,001,2020_Feb_03_2125,ominoise_main,3.2.4,59.98056329851662,
condition 2,0,1,1,1,2,0,2,0,2,0,2,0,,,,,,,,,,,,,,001,2020_Feb_03_2125,ominoise_main,3.2.4,59.98056329851662,
condition 2,0,1,1,1,2,0,2,0,3,0,3,0,,,,,,,,,,,,,,001,2020_Feb_03_2125,ominoise_main,3.2.4,59.98056329851662,
condition 2,0,1,1,1,2,0,2,0,4,0,4,0,,,,,,,,,,,,,,001,2020_Feb_03_2125,ominoise_main,3.2.4,59.98056329851662,
condition 2,0,1,1,1,2,0,2,0,,,,,,,,,,,,,,,,,,001,2020_Feb_03_2125,ominoise_main,3.2.4,59.98056329851662,
condition 2,0,1,1,1,3,0,3,0,0,0,0,0,,,,,,,,,,,,,,001,2020_Feb_03_2125,ominoise_main,3.2.4,59.98056329851662,
condition 2,0,1,1,1,3,0,3,0,1,0,1,0,,,,,,,,,,,,,,001,2020_Feb_03_2125,ominoise_main,3.2.4,59.98056329851662,
condition 2,0,1,1,1,3,0,3,0,2,0,2,0,,,,,,,,,,,,,,001,2020_Feb_03_2125,ominoise_main,3.2.4,59.98056329851662,
condition 2,0,1,1,1,3,0,3,0,3,0,3,0,,,,,,,,,,,,,,001,2020_Feb_03_2125,ominoise_main,3.2.4,59.98056329851662,
condition 2,0,1,1,1,3,0,3,0,4,0,4,0,,,,,,,,,,,,,,001,2020_Feb_03_2125,ominoise_main,3.2.4,59.98056329851662,
condition 2,0,1,1,1,3,0,3,0,,,,,,,,,,,,,,,,,,001,2020_Feb_03_2125,ominoise_main,3.2.4,59.98056329851662,
condition 2,0,1,1,1,4,0,4,0,0,0,0,0,,,,,,,,,,,,,,001,2020_Feb_03_2125,ominoise_main,3.2.4,59.98056329851662,
condition 2,0,1,1,1,4,0,4,0,1,0,1,0,,,,,,,,,,,,,,001,2020_Feb_03_2125,ominoise_main,3.2.4,59.98056329851662,
condition 2,0,1,1,1,4,0,4,0,2,0,2,0,,,,,,,,,,,,,,001,2020_Feb_03_2125,ominoise_main,3.2.4,59.98056329851662,
condition 2,0,1,1,1,4,0,4,0,3,0,3,0,,,,,,,,,,,,,,001,2020_Feb_03_2125,ominoise_main,3.2.4,59.98056329851662,
condition 2,0,1,1,1,4,0,4,0,4,0,4,0,,,,,,,,,,,,,,001,2020_Feb_03_2125,ominoise_main,3.2.4,59.98056329851662,
condition 2,0,1,1,1,4,0,4,0,,,,,,,,,,,,,,,,,,001,2020_Feb_03_2125,ominoise_main,3.2.4,59.98056329851662,
condition 2,0,1,1,1,,,,,,,,,,,,,,,,,,,,,,001,2020_Feb_03_2125,ominoise_main,3.2.4,59.98056329851662,
condition 1,0,2,2,0,0,0,0,0,0,0,0,0,,,,,,,12.282120116000442,None,space,0.4215945309997551,12.282120116000442,None,,001,2020_Feb_03_2125,ominoise_main,3.2.4,59.98056329851662,
condition 1,0,2,2,0,0,0,0,0,1,0,1,0,,,,,,,,,,,,,,001,2020_Feb_03_2125,ominoise_main,3.2.4,59.98056329851662,
condition 1,0,2,2,0,0,0,0,0,2,0,2,0,,,,,,,,,,,,,,001,2020_Feb_03_2125,ominoise_main,3.2.4,59.98056329851662,
condition 1,0,2,2,0,0,0,0,0,3,0,3,0,,,,,,,,,,,,,,001,2020_Feb_03_2125,ominoise_main,3.2.4,59.98056329851662,
condition 1,0,2,2,0,0,0,0,0,4,0,4,0,,,,,,,,,,,,,,001,2020_Feb_03_2125,ominoise_main,3.2.4,59.98056329851662,
condition 1,0,2,2,0,0,0,0,0,,,,,,,,,,,,,,,,,,001,2020_Feb_03_2125,ominoise_main,3.2.4,59.98056329851662,
condition 1,0,2,2,0,1,0,1,0,0,0,0,0,,,,,,,,,,,,,,001,2020_Feb_03_2125,ominoise_main,3.2.4,59.98056329851662,
condition 1,0,2,2,0,1,0,1,0,1,0,1,0,,,,,,,,,,,,,,001,2020_Feb_03_2125,ominoise_main,3.2.4,59.98056329851662,
condition 1,0,2,2,0,1,0,1,0,2,0,2,0,,,,,,,,,,,,,,001,2020_Feb_03_2125,ominoise_main,3.2.4,59.98056329851662,
condition 1,0,2,2,0,1,0,1,0,3,0,3,0,,,,,,,,,,,,,,001,2020_Feb_03_2125,ominoise_main,3.2.4,59.98056329851662,
condition 1,0,2,2,0,1,0,1,0,4,0,4,0,,,,,,,,,,,,,,001,2020_Feb_03_2125,ominoise_main,3.2.4,59.98056329851662,
condition 1,0,2,2,0,1,0,1,0,,,,,,,,,,,,,,,,,,001,2020_Feb_03_2125,ominoise_main,3.2.4,59.98056329851662,
condition 1,0,2,2,0,2,0,2,0,0,0,0,0,,,,,,,,,,,,,,001,2020_Feb_03_2125,ominoise_main,3.2.4,59.98056329851662,
condition 1,0,2,2,0,2,0,2,0,1,0,1,0,,,,,,,,,,,,,,001,2020_Feb_03_2125,ominoise_main,3.2.4,59.98056329851662,
condition 1,0,2,2,0,2,0,2,0,2,0,2,0,,,,,,,,,,,,,,001,2020_Feb_03_2125,ominoise_main,3.2.4,59.98056329851662,
condition 1,0,2,2,0,2,0,2,0,3,0,3,0,,,,,,,,,,,,,,001,2020_Feb_03_2125,ominoise_main,3.2.4,59.98056329851662,
condition 1,0,2,2,0,2,0,2,0,4,0,4,0,,,,,,,,,,,,,,001,2020_Feb_03_2125,ominoise_main,3.2.4,59.98056329851662,
condition 1,0,2,2,0,2,0,2,0,,,,,,,,,,,,,,,,,,001,2020_Feb_03_2125,ominoise_main,3.2.4,59.98056329851662,
condition 1,0,2,2,0,3,0,3,0,0,0,0,0,,,,,,,,,,,,,,001,2020_Feb_03_2125,ominoise_main,3.2.4,59.98056329851662,
condition 1,0,2,2,0,3,0,3,0,1,0,1,0,,,,,,,,,,,,,,001,2020_Feb_03_2125,ominoise_main,3.2.4,59.98056329851662,
condition 1,0,2,2,0,3,0,3,0,2,0,2,0,,,,,,,,,,,,,,001,2020_Feb_03_2125,ominoise_main,3.2.4,59.98056329851662,
condition 1,0,2,2,0,3,0,3,0,3,0,3,0,,,,,,,,,,,,,,001,2020_Feb_03_2125,ominoise_main,3.2.4,59.98056329851662,
condition 1,0,2,2,0,3,0,3,0,4,0,4,0,,,,,,,,,,,,,,001,2020_Feb_03_2125,ominoise_main,3.2.4,59.98056329851662,
condition 1,0,2,2,0,3,0,3,0,,,,,,,,,,,,,,,,,,001,2020_Feb_03_2125,ominoise_main,3.2.4,59.98056329851662,
condition 1,0,2,2,0,4,0,4,0,0,0,0,0,,,,,,,,,,,,,,001,2020_Feb_03_2125,ominoise_main,3.2.4,59.98056329851662,
condition 1,0,2,2,0,4,0,4,0,1,0,1,0,,,,,,,,,,,,,,001,2020_Feb_03_2125,ominoise_main,3.2.4,59.98056329851662,
condition 1,0,2,2,0,4,0,4,0,2,0,2,0,,,,,,,,,,,,,,001,2020_Feb_03_2125,ominoise_main,3.2.4,59.98056329851662,
condition 1,0,2,2,0,4,0,4,0,3,0,3,0,,,,,,,,,,,,,,001,2020_Feb_03_2125,ominoise_main,3.2.4,59.98056329851662,
condition 1,0,2,2,0,4,0,4,0,4,0,4,0,,,,,,,,,,,,,,001,2020_Feb_03_2125,ominoise_main,3.2.4,59.98056329851662,
condition 1,0,2,2,0,4,0,4,0,,,,,,,,,,,,,,,,,,001,2020_Feb_03_2125,ominoise_main,3.2.4,59.98056329851662,
condition 1,0,2,2,0,,,,,,,,,,,,,,,,,,,,,,001,2020_Feb_03_2125,ominoise_main,3.2.4,59.98056329851662,
condition 4,0,3,3,3,0,0,0,0,0,0,0,0,,,,,,,12.76507215499987,None,space,0.36355094099963026,12.76507215499987,None,,001,2020_Feb_03_2125,ominoise_main,3.2.4,59.98056329851662,
condition 4,0,3,3,3,0,0,0,0,1,0,1,0,,,,,,,,,,,,,,001,2020_Feb_03_2125,ominoise_main,3.2.4,59.98056329851662,
condition 4,0,3,3,3,0,0,0,0,2,0,2,0,,,,,,,,,,,,,,001,2020_Feb_03_2125,ominoise_main,3.2.4,59.98056329851662,
condition 4,0,3,3,3,0,0,0,0,3,0,3,0,,,,,,,,,,,,,,001,2020_Feb_03_2125,ominoise_main,3.2.4,59.98056329851662,
condition 4,0,3,3,3,0,0,0,0,4,0,4,0,,,,,,,,,,,,,,001,2020_Feb_03_2125,ominoise_main,3.2.4,59.98056329851662,
condition 4,0,3,3,3,0,0,0,0,,,,,,,,,,,,,,,,,,001,2020_Feb_03_2125,ominoise_main,3.2.4,59.98056329851662,
condition 4,0,3,3,3,1,0,1,0,0,0,0,0,,,,,,,,,,,,,,001,2020_Feb_03_2125,ominoise_main,3.2.4,59.98056329851662,
condition 4,0,3,3,3,1,0,1,0,1,0,1,0,,,,,,,,,,,,,,001,2020_Feb_03_2125,ominoise_main,3.2.4,59.98056329851662,
condition 4,0,3,3,3,1,0,1,0,2,0,2,0,,,,,,,,,,,,,,001,2020_Feb_03_2125,ominoise_main,3.2.4,59.98056329851662,
condition 4,0,3,3,3,1,0,1,0,3,0,3,0,,,,,,,,,,,,,,001,2020_Feb_03_2125,ominoise_main,3.2.4,59.98056329851662,
condition 4,0,3,3,3,1,0,1,0,4,0,4,0,,,,,,,,,,,,,,001,2020_Feb_03_2125,ominoise_main,3.2.4,59.98056329851662,
condition 4,0,3,3,3,1,0,1,0,,,,,,,,,,,,,,,,,,001,2020_Feb_03_2125,ominoise_main,3.2.4,59.98056329851662,
condition 4,0,3,3,3,2,0,2,0,0,0,0,0,,,,,,,,,,,,,,001,2020_Feb_03_2125,ominoise_main,3.2.4,59.98056329851662,
condition 4,0,3,3,3,2,0,2,0,1,0,1,0,,,,,,,,,,,,,,001,2020_Feb_03_2125,ominoise_main,3.2.4,59.98056329851662,
condition 4,0,3,3,3,2,0,2,0,2,0,2,0,,,,,,,,,,,,,,001,2020_Feb_03_2125,ominoise_main,3.2.4,59.98056329851662,
condition 4,0,3,3,3,2,0,2,0,3,0,3,0,,,,,,,,,,,,,,001,2020_Feb_03_2125,ominoise_main,3.2.4,59.98056329851662,
condition 4,0,3,3,3,2,0,2,0,4,0,4,0,,,,,,,,,,,,,,001,2020_Feb_03_2125,ominoise_main,3.2.4,59.98056329851662,
condition 4,0,3,3,3,2,0,2,0,,,,,,,,,,,,,,,,,,001,2020_Feb_03_2125,ominoise_main,3.2.4,59.98056329851662,
condition 4,0,3,3,3,3,0,3,0,0,0,0,0,,,,,,,,,,,,,,001,2020_Feb_03_2125,ominoise_main,3.2.4,59.98056329851662,
condition 4,0,3,3,3,3,0,3,0,1,0,1,0,,,,,,,,,,,,,,001,2020_Feb_03_2125,ominoise_main,3.2.4,59.98056329851662,
condition 4,0,3,3,3,3,0,3,0,2,0,2,0,,,,,,,,,,,,,,001,2020_Feb_03_2125,ominoise_main,3.2.4,59.98056329851662,
condition 4,0,3,3,3,3,0,3,0,3,0,3,0,,,,,,,,,,,,,,001,2020_Feb_03_2125,ominoise_main,3.2.4,59.98056329851662,
condition 4,0,3,3,3,3,0,3,0,4,0,4,0,,,,,,,,,,,,,,001,2020_Feb_03_2125,ominoise_main,3.2.4,59.98056329851662,
condition 4,0,3,3,3,3,0,3,0,,,,,,,,,,,,,,,,,,001,2020_Feb_03_2125,ominoise_main,3.2.4,59.98056329851662,
condition 4,0,3,3,3,4,0,4,0,0,0,0,0,,,,,,,,,,,,,,001,2020_Feb_03_2125,ominoise_main,3.2.4,59.98056329851662,
condition 4,0,3,3,3,4,0,4,0,1,0,1,0,,,,,,,,,,,,,,001,2020_Feb_03_2125,ominoise_main,3.2.4,59.98056329851662,
condition 4,0,3,3,3,4,0,4,0,2,0,2,0,,,,,,,,,,,,,,001,2020_Feb_03_2125,ominoise_main,3.2.4,59.98056329851662,
condition 4,0,3,3,3,4,0,4,0,3,0,3,0,,,,,,,,,,,,,,001,2020_Feb_03_2125,ominoise_main,3.2.4,59.98056329851662,
condition 4,0,3,3,3,4,0,4,0,4,0,4,0,,,,,,,,,,,,,,001,2020_Feb_03_2125,ominoise_main,3.2.4,59.98056329851662,
condition 4,0,3,3,3,4,0,4,0,,,,,,,,,,,,,,,,,,001,2020_Feb_03_2125,ominoise_main,3.2.4,59.98056329851662,
condition 4,0,3,3,3,,,,,,,,,,,,,,,,,,,,,,001,2020_Feb_03_2125,ominoise_main,3.2.4,59.98056329851662,
condition 2,1,0,4,1,0,0,0,0,0,0,0,0,,,,,,,13.181778658999974,None,space,0.5094593220001116,13.181778658999974,None,,001,2020_Feb_03_2125,ominoise_main,3.2.4,59.98056329851662,
condition 2,1,0,4,1,0,0,0,0,1,0,1,0,,,,,,,,,,,,,,001,2020_Feb_03_2125,ominoise_main,3.2.4,59.98056329851662,
condition 2,1,0,4,1,0,0,0,0,2,0,2,0,,,,,,,,,,,,,,001,2020_Feb_03_2125,ominoise_main,3.2.4,59.98056329851662,
condition 2,1,0,4,1,0,0,0,0,3,0,3,0,,,,,,,,,,,,,,001,2020_Feb_03_2125,ominoise_main,3.2.4,59.98056329851662,
condition 2,1,0,4,1,0,0,0,0,4,0,4,0,,,,,,,,,,,,,,001,2020_Feb_03_2125,ominoise_main,3.2.4,59.98056329851662,
condition 2,1,0,4,1,0,0,0,0,,,,,,,,,,,,,,,,,,001,2020_Feb_03_2125,ominoise_main,3.2.4,59.98056329851662,
condition 2,1,0,4,1,1,0,1,0,0,0,0,0,,,,,,,,,,,,,,001,2020_Feb_03_2125,ominoise_main,3.2.4,59.98056329851662,
condition 2,1,0,4,1,1,0,1,0,1,0,1,0,,,,,,,,,,,,,,001,2020_Feb_03_2125,ominoise_main,3.2.4,59.98056329851662,
condition 2,1,0,4,1,1,0,1,0,2,0,2,0,,,,,,,,,,,,,,001,2020_Feb_03_2125,ominoise_main,3.2.4,59.98056329851662,
condition 2,1,0,4,1,1,0,1,0,3,0,3,0,,,,,,,,,,,,,,001,2020_Feb_03_2125,ominoise_main,3.2.4,59.98056329851662,
condition 2,1,0,4,1,1,0,1,0,4,0,4,0,,,,,,,,,,,,,,001,2020_Feb_03_2125,ominoise_main,3.2.4,59.98056329851662,
condition 2,1,0,4,1,1,0,1,0,,,,,,,,,,,,,,,,,,001,2020_Feb_03_2125,ominoise_main,3.2.4,59.98056329851662,
condition 2,1,0,4,1,2,0,2,0,0,0,0,0,,,,,,,,,,,,,,001,2020_Feb_03_2125,ominoise_main,3.2.4,59.98056329851662,
condition 2,1,0,4,1,2,0,2,0,1,0,1,0,,,,,,,,,,,,,,001,2020_Feb_03_2125,ominoise_main,3.2.4,59.98056329851662,
condition 2,1,0,4,1,2,0,2,0,2,0,2,0,,,,,,,,,,,,,,001,2020_Feb_03_2125,ominoise_main,3.2.4,59.98056329851662,
condition 2,1,0,4,1,2,0,2,0,3,0,3,0,,,,,,,,,,,,,,001,2020_Feb_03_2125,ominoise_main,3.2.4,59.98056329851662,
condition 2,1,0,4,1,2,0,2,0,4,0,4,0,,,,,,,,,,,,,,001,2020_Feb_03_2125,ominoise_main,3.2.4,59.98056329851662,
condition 2,1,0,4,1,2,0,2,0,,,,,,,,,,,,,,,,,,001,2020_Feb_03_2125,ominoise_main,3.2.4,59.98056329851662,
condition 2,1,0,4,1,3,0,3,0,0,0,0,0,,,,,,,,,,,,,,001,2020_Feb_03_2125,ominoise_main,3.2.4,59.98056329851662,
condition 2,1,0,4,1,3,0,3,0,1,0,1,0,,,,,,,,,,,,,,001,2020_Feb_03_2125,ominoise_main,3.2.4,59.98056329851662,
condition 2,1,0,4,1,3,0,3,0,2,0,2,0,,,,,,,,,,,,,,001,2020_Feb_03_2125,ominoise_main,3.2.4,59.98056329851662,
condition 2,1,0,4,1,3,0,3,0,3,0,3,0,,,,,,,,,,,,,,001,2020_Feb_03_2125,ominoise_main,3.2.4,59.98056329851662,
condition 2,1,0,4,1,3,0,3,0,4,0,4,0,,,,,,,,,,,,,,001,2020_Feb_03_2125,ominoise_main,3.2.4,59.98056329851662,
condition 2,1,0,4,1,3,0,3,0,,,,,,,,,,,,,,,,,,001,2020_Feb_03_2125,ominoise_main,3.2.4,59.98056329851662,
condition 2,1,0,4,1,4,0,4,0,0,0,0,0,,,,,,,,,,,,,,001,2020_Feb_03_2125,ominoise_main,3.2.4,59.98056329851662,
condition 2,1,0,4,1,4,0,4,0,1,0,1,0,,,,,,,,,,,,,,001,2020_Feb_03_2125,ominoise_main,3.2.4,59.98056329851662,
condition 2,1,0,4,1,4,0,4,0,2,0,2,0,,,,,,,,,,,,,,001,2020_Feb_03_2125,ominoise_main,3.2.4,59.98056329851662,
condition 2,1,0,4,1,4,0,4,0,3,0,3,0,,,,,,,,,,,,,,001,2020_Feb_03_2125,ominoise_main,3.2.4,59.98056329851662,
condition 2,1,0,4,1,4,0,4,0,4,0,4,0,,,,,,,,,,,,,,001,2020_Feb_03_2125,ominoise_main,3.2.4,59.98056329851662,
condition 2,1,0,4,1,4,0,4,0,,,,,,,,,,,,,,,,,,001,2020_Feb_03_2125,ominoise_main,3.2.4,59.98056329851662,
condition 2,1,0,4,1,,,,,,,,,,,,,,,,,,,,,,001,2020_Feb_03_2125,ominoise_main,3.2.4,59.98056329851662,
condition 3,1,1,5,2,0,0,0,0,0,0,0,0,,,,,,,13.732259786000213,None,space,0.18382424100036587,13.732259786000213,None,,001,2020_Feb_03_2125,ominoise_main,3.2.4,59.98056329851662,
condition 3,1,1,5,2,0,0,0,0,1,0,1,0,,,,,,,,,,,,,,001,2020_Feb_03_2125,ominoise_main,3.2.4,59.98056329851662,
condition 3,1,1,5,2,0,0,0,0,2,0,2,0,,,,,,,,,,,,,,001,2020_Feb_03_2125,ominoise_main,3.2.4,59.98056329851662,
condition 3,1,1,5,2,0,0,0,0,3,0,3,0,,,,,,,,,,,,,,001,2020_Feb_03_2125,ominoise_main,3.2.4,59.98056329851662,
condition 3,1,1,5,2,0,0,0,0,4,0,4,0,,,,,,,,,,,,,,001,2020_Feb_03_2125,ominoise_main,3.2.4,59.98056329851662,
condition 3,1,1,5,2,0,0,0,0,,,,,,,,,,,,,,,,,,001,2020_Feb_03_2125,ominoise_main,3.2.4,59.98056329851662,
condition 3,1,1,5,2,1,0,1,0,0,0,0,0,,,,,,,,,,,,,,001,2020_Feb_03_2125,ominoise_main,3.2.4,59.98056329851662,
condition 3,1,1,5,2,1,0,1,0,1,0,1,0,,,,,,,,,,,,,,001,2020_Feb_03_2125,ominoise_main,3.2.4,59.98056329851662,
condition 3,1,1,5,2,1,0,1,0,2,0,2,0,,,,,,,,,,,,,,001,2020_Feb_03_2125,ominoise_main,3.2.4,59.98056329851662,
condition 3,1,1,5,2,1,0,1,0,3,0,3,0,,,,,,,,,,,,,,001,2020_Feb_03_2125,ominoise_main,3.2.4,59.98056329851662,
condition 3,1,1,5,2,1,0,1,0,4,0,4,0,,,,,,,,,,,,,,001,2020_Feb_03_2125,ominoise_main,3.2.4,59.98056329851662,
condition 3,1,1,5,2,1,0,1,0,,,,,,,,,,,,,,,,,,001,2020_Feb_03_2125,ominoise_main,3.2.4,59.98056329851662,
condition 3,1,1,5,2,2,0,2,0,0,0,0,0,,,,,,,,,,,,,,001,2020_Feb_03_2125,ominoise_main,3.2.4,59.98056329851662,
condition 3,1,1,5,2,2,0,2,0,1,0,1,0,,,,,,,,,,,,,,001,2020_Feb_03_2125,ominoise_main,3.2.4,59.98056329851662,
condition 3,1,1,5,2,2,0,2,0,2,0,2,0,,,,,,,,,,,,,,001,2020_Feb_03_2125,ominoise_main,3.2.4,59.98056329851662,
condition 3,1,1,5,2,2,0,2,0,3,0,3,0,,,,,,,,,,,,,,001,2020_Feb_03_2125,ominoise_main,3.2.4,59.98056329851662,
condition 3,1,1,5,2,2,0,2,0,4,0,4,0,,,,,,,,,,,,,,001,2020_Feb_03_2125,ominoise_main,3.2.4,59.98056329851662,
condition 3,1,1,5,2,2,0,2,0,,,,,,,,,,,,,,,,,,001,2020_Feb_03_2125,ominoise_main,3.2.4,59.98056329851662,
condition 3,1,1,5,2,3,0,3,0,0,0,0,0,,,,,,,,,,,,,,001,2020_Feb_03_2125,ominoise_main,3.2.4,59.98056329851662,
condition 3,1,1,5,2,3,0,3,0,1,0,1,0,,,,,,,,,,,,,,001,2020_Feb_03_2125,ominoise_main,3.2.4,59.98056329851662,
condition 3,1,1,5,2,3,0,3,0,2,0,2,0,,,,,,,,,,,,,,001,2020_Feb_03_2125,ominoise_main,3.2.4,59.98056329851662,
condition 3,1,1,5,2,3,0,3,0,3,0,3,0,,,,,,,,,,,,,,001,2020_Feb_03_2125,ominoise_main,3.2.4,59.98056329851662,
condition 3,1,1,5,2,3,0,3,0,4,0,4,0,,,,,,,,,,,,,,001,2020_Feb_03_2125,ominoise_main,3.2.4,59.98056329851662,
condition 3,1,1,5,2,3,0,3,0,,,,,,,,,,,,,,,,,,001,2020_Feb_03_2125,ominoise_main,3.2.4,59.98056329851662,
condition 3,1,1,5,2,4,0,4,0,0,0,0,0,,,,,,,,,,,,,,001,2020_Feb_03_2125,ominoise_main,3.2.4,59.98056329851662,
condition 3,1,1,5,2,4,0,4,0,1,0,1,0,,,,,,,,,,,,,,001,2020_Feb_03_2125,ominoise_main,3.2.4,59.98056329851662,
condition 3,1,1,5,2,4,0,4,0,2,0,2,0,,,,,,,,,,,,,,001,2020_Feb_03_2125,ominoise_main,3.2.4,59.98056329851662,
condition 3,1,1,5,2,4,0,4,0,3,0,3,0,,,,,,,,,,,,,,001,2020_Feb_03_2125,ominoise_main,3.2.4,59.98056329851662,
condition 3,1,1,5,2,4,0,4,0,4,0,4,0,,,,,,,,,,,,,,001,2020_Feb_03_2125,ominoise_main,3.2.4,59.98056329851662,
condition 3,1,1,5,2,4,0,4,0,,,,,,,,,,,,,,,,,,001,2020_Feb_03_2125,ominoise_main,3.2.4,59.98056329851662,
condition 3,1,1,5,2,,,,,,,,,,,,,,,,,,,,,,001,2020_Feb_03_2125,ominoise_main,3.2.4,59.98056329851662,
condition 1,1,2,6,0,0,0,0,0,0,0,0,0,,,,,,,13.96613205199992,None,space,0.12515370700020867,13.96613205199992,None,,001,2020_Feb_03_2125,ominoise_main,3.2.4,59.98056329851662,
condition 1,1,2,6,0,0,0,0,0,1,0,1,0,,,,,,,,,,,,,,001,2020_Feb_03_2125,ominoise_main,3.2.4,59.98056329851662,
condition 1,1,2,6,0,0,0,0,0,2,0,2,0,,,,,,,,,,,,,,001,2020_Feb_03_2125,ominoise_main,3.2.4,59.98056329851662,
condition 1,1,2,6,0,0,0,0,0,3,0,3,0,,,,,,,,,,,,,,001,2020_Feb_03_2125,ominoise_main,3.2.4,59.98056329851662,
condition 1,1,2,6,0,0,0,0,0,4,0,4,0,,,,,,,,,,,,,,001,2020_Feb_03_2125,ominoise_main,3.2.4,59.98056329851662,
condition 1,1,2,6,0,0,0,0,0,,,,,,,,,,,,,,,,,,001,2020_Feb_03_2125,ominoise_main,3.2.4,59.98056329851662,
condition 1,1,2,6,0,1,0,1,0,0,0,0,0,,,,,,,,,,,,,,001,2020_Feb_03_2125,ominoise_main,3.2.4,59.98056329851662,
condition 1,1,2,6,0,1,0,1,0,1,0,1,0,,,,,,,,,,,,,,001,2020_Feb_03_2125,ominoise_main,3.2.4,59.98056329851662,
condition 1,1,2,6,0,1,0,1,0,2,0,2,0,,,,,,,,,,,,,,001,2020_Feb_03_2125,ominoise_main,3.2.4,59.98056329851662,
condition 1,1,2,6,0,1,0,1,0,3,0,3,0,,,,,,,,,,,,,,001,2020_Feb_03_2125,ominoise_main,3.2.4,59.98056329851662,
condition 1,1,2,6,0,1,0,1,0,4,0,4,0,,,,,,,,,,,,,,001,2020_Feb_03_2125,ominoise_main,3.2.4,59.98056329851662,
condition 1,1,2,6,0,1,0,1,0,,,,,,,,,,,,,,,,,,001,2020_Feb_03_2125,ominoise_main,3.2.4,59.98056329851662,
condition 1,1,2,6,0,2,0,2,0,0,0,0,0,,,,,,,,,,,,,,001,2020_Feb_03_2125,ominoise_main,3.2.4,59.98056329851662,
condition 1,1,2,6,0,2,0,2,0,1,0,1,0,,,,,,,,,,,,,,001,2020_Feb_03_2125,ominoise_main,3.2.4,59.98056329851662,
condition 1,1,2,6,0,2,0,2,0,2,0,2,0,,,,,,,,,,,,,,001,2020_Feb_03_2125,ominoise_main,3.2.4,59.98056329851662,
condition 1,1,2,6,0,2,0,2,0,3,0,3,0,,,,,,,,,,,,,,001,2020_Feb_03_2125,ominoise_main,3.2.4,59.98056329851662,
condition 1,1,2,6,0,2,0,2,0,4,0,4,0,,,,,,,,,,,,,,001,2020_Feb_03_2125,ominoise_main,3.2.4,59.98056329851662,
condition 1,1,2,6,0,2,0,2,0,,,,,,,,,,,,,,,,,,001,2020_Feb_03_2125,ominoise_main,3.2.4,59.98056329851662,
condition 1,1,2,6,0,3,0,3,0,0,0,0,0,,,,,,,,,,,,,,001,2020_Feb_03_2125,ominoise_main,3.2.4,59.98056329851662,
condition 1,1,2,6,0,3,0,3,0,1,0,1,0,,,,,,,,,,,,,,001,2020_Feb_03_2125,ominoise_main,3.2.4,59.98056329851662,
condition 1,1,2,6,0,3,0,3,0,2,0,2,0,,,,,,,,,,,,,,001,2020_Feb_03_2125,ominoise_main,3.2.4,59.98056329851662,
condition 1,1,2,6,0,3,0,3,0,3,0,3,0,,,,,,,,,,,,,,001,2020_Feb_03_2125,ominoise_main,3.2.4,59.98056329851662,
condition 1,1,2,6,0,3,0,3,0,4,0,4,0,,,,,,,,,,,,,,001,2020_Feb_03_2125,ominoise_main,3.2.4,59.98056329851662,
condition 1,1,2,6,0,3,0,3,0,,,,,,,,,,,,,,,,,,001,2020_Feb_03_2125,ominoise_main,3.2.4,59.98056329851662,
condition 1,1,2,6,0,4,0,4,0,0,0,0,0,,,,,,,,,,,,,,001,2020_Feb_03_2125,ominoise_main,3.2.4,59.98056329851662,
condition 1,1,2,6,0,4,0,4,0,1,0,1,0,,,,,,,,,,,,,,001,2020_Feb_03_2125,ominoise_main,3.2.4,59.98056329851662,
condition 1,1,2,6,0,4,0,4,0,2,0,2,0,,,,,,,,,,,,,,001,2020_Feb_03_2125,ominoise_main,3.2.4,59.98056329851662,
condition 1,1,2,6,0,4,0,4,0,3,0,3,0,,,,,,,,,,,,,,001,2020_Feb_03_2125,ominoise_main,3.2.4,59.98056329851662,
condition 1,1,2,6,0,4,0,4,0,4,0,4,0,,,,,,,,,,,,,,001,2020_Feb_03_2125,ominoise_main,3.2.4,59.98056329851662,
condition 1,1,2,6,0,4,0,4,0,,,,,,,,,,,,,,,,,,001,2020_Feb_03_2125,ominoise_main,3.2.4,59.98056329851662,
condition 1,1,2,6,0,,,,,,,,,,,,,,,,,,,,,,001,2020_Feb_03_2125,ominoise_main,3.2.4,59.98056329851662,
condition 4,1,3,7,3,0,0,0,0,0,0,0,0,,,,,,,14.131515918000332,None,space,0.1471118129993556,14.131515918000332,None,,001,2020_Feb_03_2125,ominoise_main,3.2.4,59.98056329851662,
condition 4,1,3,7,3,0,0,0,0,1,0,1,0,,,,,,,,,,,,,,001,2020_Feb_03_2125,ominoise_main,3.2.4,59.98056329851662,
condition 4,1,3,7,3,0,0,0,0,2,0,2,0,,,,,,,,,,,,,,001,2020_Feb_03_2125,ominoise_main,3.2.4,59.98056329851662,
condition 4,1,3,7,3,0,0,0,0,3,0,3,0,,,,,,,,,,,,,,001,2020_Feb_03_2125,ominoise_main,3.2.4,59.98056329851662,
condition 4,1,3,7,3,0,0,0,0,4,0,4,0,,,,,,,,,,,,,,001,2020_Feb_03_2125,ominoise_main,3.2.4,59.98056329851662,
condition 4,1,3,7,3,0,0,0,0,,,,,,,,,,,,,,,,,,001,2020_Feb_03_2125,ominoise_main,3.2.4,59.98056329851662,
condition 4,1,3,7,3,1,0,1,0,0,0,0,0,,,,,,,,,,,,,,001,2020_Feb_03_2125,ominoise_main,3.2.4,59.98056329851662,
condition 4,1,3,7,3,1,0,1,0,1,0,1,0,,,,,,,,,,,,,,001,2020_Feb_03_2125,ominoise_main,3.2.4,59.98056329851662,
condition 4,1,3,7,3,1,0,1,0,2,0,2,0,,,,,,,,,,,,,,001,2020_Feb_03_2125,ominoise_main,3.2.4,59.98056329851662,
condition 4,1,3,7,3,1,0,1,0,3,0,3,0,,,,,,,,,,,,,,001,2020_Feb_03_2125,ominoise_main,3.2.4,59.98056329851662,
condition 4,1,3,7,3,1,0,1,0,4,0,4,0,,,,,,,,,,,,,,001,2020_Feb_03_2125,ominoise_main,3.2.4,59.98056329851662,
condition 4,1,3,7,3,1,0,1,0,,,,,,,,,,,,,,,,,,001,2020_Feb_03_2125,ominoise_main,3.2.4,59.98056329851662,
condition 4,1,3,7,3,2,0,2,0,0,0,0,0,,,,,,,,,,,,,,001,2020_Feb_03_2125,ominoise_main,3.2.4,59.98056329851662,
condition 4,1,3,7,3,2,0,2,0,1,0,1,0,,,,,,,,,,,,,,001,2020_Feb_03_2125,ominoise_main,3.2.4,59.98056329851662,
condition 4,1,3,7,3,2,0,2,0,2,0,2,0,,,,,,,,,,,,,,001,2020_Feb_03_2125,ominoise_main,3.2.4,59.98056329851662,
condition 4,1,3,7,3,2,0,2,0,3,0,3,0,,,,,,,,,,,,,,001,2020_Feb_03_2125,ominoise_main,3.2.4,59.98056329851662,
condition 4,1,3,7,3,2,0,2,0,4,0,4,0,,,,,,,,,,,,,,001,2020_Feb_03_2125,ominoise_main,3.2.4,59.98056329851662,
condition 4,1,3,7,3,2,0,2,0,,,,,,,,,,,,,,,,,,001,2020_Feb_03_2125,ominoise_main,3.2.4,59.98056329851662,
condition 4,1,3,7,3,3,0,3,0,0,0,0,0,,,,,,,,,,,,,,001,2020_Feb_03_2125,ominoise_main,3.2.4,59.98056329851662,
condition 4,1,3,7,3,3,0,3,0,1,0,1,0,,,,,,,,,,,,,,001,2020_Feb_03_2125,ominoise_main,3.2.4,59.98056329851662,
condition 4,1,3,7,3,3,0,3,0,2,0,2,0,,,,,,,,,,,,,,001,2020_Feb_03_2125,ominoise_main,3.2.4,59.98056329851662,
condition 4,1,3,7,3,3,0,3,0,3,0,3,0,,,,,,,,,,,,,,001,2020_Feb_03_2125,ominoise_main,3.2.4,59.98056329851662,
condition 4,1,3,7,3,3,0,3,0,4,0,4,0,,,,,,,,,,,,,,001,2020_Feb_03_2125,ominoise_main,3.2.4,59.98056329851662,
condition 4,1,3,7,3,3,0,3,0,,,,,,,,,,,,,,,,,,001,2020_Feb_03_2125,ominoise_main,3.2.4,59.98056329851662,
condition 4,1,3,7,3,4,0,4,0,0,0,0,0,,,,,,,,,,,,,,001,2020_Feb_03_2125,ominoise_main,3.2.4,59.98056329851662,
condition 4,1,3,7,3,4,0,4,0,1,0,1,0,,,,,,,,,,,,,,001,2020_Feb_03_2125,ominoise_main,3.2.4,59.98056329851662,
condition 4,1,3,7,3,4,0,4,0,2,0,2,0,,,,,,,,,,,,,,001,2020_Feb_03_2125,ominoise_main,3.2.4,59.98056329851662,
condition 4,1,3,7,3,4,0,4,0,3,0,3,0,,,,,,,,,,,,,,001,2020_Feb_03_2125,ominoise_main,3.2.4,59.98056329851662,
condition 4,1,3,7,3,4,0,4,0,4,0,4,0,,,,,,,,,,,,,,001,2020_Feb_03_2125,ominoise_main,3.2.4,59.98056329851662,
condition 4,1,3,7,3,4,0,4,0,,,,,,,,,,,,,,,,,,001,2020_Feb_03_2125,ominoise_main,3.2.4,59.98056329851662,
condition 4,1,3,7,3,,,,,,,,,,,,,,,,,,,,,,001,2020_Feb_03_2125,ominoise_main,3.2.4,59.98056329851662,
condition 2,2,0,8,1,0,0,0,0,0,0,0,0,,,,,,,14.3156031110002,None,space,0.16515417299979163,14.3156031110002,None,,001,2020_Feb_03_2125,ominoise_main,3.2.4,59.98056329851662,
condition 2,2,0,8,1,0,0,0,0,1,0,1,0,,,,,,,,,,,,,,001,2020_Feb_03_2125,ominoise_main,3.2.4,59.98056329851662,
condition 2,2,0,8,1,0,0,0,0,2,0,2,0,,,,,,,,,,,,,,001,2020_Feb_03_2125,ominoise_main,3.2.4,59.98056329851662,
condition 2,2,0,8,1,0,0,0,0,3,0,3,0,,,,,,,,,,,,,,001,2020_Feb_03_2125,ominoise_main,3.2.4,59.98056329851662,
condition 2,2,0,8,1,0,0,0,0,4,0,4,0,,,,,,,,,,,,,,001,2020_Feb_03_2125,ominoise_main,3.2.4,59.98056329851662,
condition 2,2,0,8,1,0,0,0,0,,,,,,,,,,,,,,,,,,001,2020_Feb_03_2125,ominoise_main,3.2.4,59.98056329851662,
condition 2,2,0,8,1,1,0,1,0,0,0,0,0,,,,,,,,,,,,,,001,2020_Feb_03_2125,ominoise_main,3.2.4,59.98056329851662,
condition 2,2,0,8,1,1,0,1,0,1,0,1,0,,,,,,,,,,,,,,001,2020_Feb_03_2125,ominoise_main,3.2.4,59.98056329851662,
condition 2,2,0,8,1,1,0,1,0,2,0,2,0,,,,,,,,,,,,,,001,2020_Feb_03_2125,ominoise_main,3.2.4,59.98056329851662,
condition 2,2,0,8,1,1,0,1,0,3,0,3,0,,,,,,,,,,,,,,001,2020_Feb_03_2125,ominoise_main,3.2.4,59.98056329851662,
condition 2,2,0,8,1,1,0,1,0,4,0,4,0,,,,,,,,,,,,,,001,2020_Feb_03_2125,ominoise_main,3.2.4,59.98056329851662,
condition 2,2,0,8,1,1,0,1,0,,,,,,,,,,,,,,,,,,001,2020_Feb_03_2125,ominoise_main,3.2.4,59.98056329851662,
condition 2,2,0,8,1,2,0,2,0,0,0,0,0,,,,,,,,,,,,,,001,2020_Feb_03_2125,ominoise_main,3.2.4,59.98056329851662,
condition 2,2,0,8,1,2,0,2,0,1,0,1,0,,,,,,,,,,,,,,001,2020_Feb_03_2125,ominoise_main,3.2.4,59.98056329851662,
condition 2,2,0,8,1,2,0,2,0,2,0,2,0,,,,,,,,,,,,,,001,2020_Feb_03_2125,ominoise_main,3.2.4,59.98056329851662,
condition 2,2,0,8,1,2,0,2,0,3,0,3,0,,,,,,,,,,,,,,001,2020_Feb_03_2125,ominoise_main,3.2.4,59.98056329851662,
condition 2,2,0,8,1,2,0,2,0,4,0,4,0,,,,,,,,,,,,,,001,2020_Feb_03_2125,ominoise_main,3.2.4,59.98056329851662,
condition 2,2,0,8,1,2,0,2,0,,,,,,,,,,,,,,,,,,001,2020_Feb_03_2125,ominoise_main,3.2.4,59.98056329851662,
condition 2,2,0,8,1,3,0,3,0,0,0,0,0,,,,,,,,,,,,,,001,2020_Feb_03_2125,ominoise_main,3.2.4,59.98056329851662,
condition 2,2,0,8,1,3,0,3,0,1,0,1,0,,,,,,,,,,,,,,001,2020_Feb_03_2125,ominoise_main,3.2.4,59.98056329851662,
condition 2,2,0,8,1,3,0,3,0,2,0,2,0,,,,,,,,,,,,,,001,2020_Feb_03_2125,ominoise_main,3.2.4,59.98056329851662,
condition 2,2,0,8,1,3,0,3,0,3,0,3,0,,,,,,,,,,,,,,001,2020_Feb_03_2125,ominoise_main,3.2.4,59.98056329851662,
condition 2,2,0,8,1,3,0,3,0,4,0,4,0,,,,,,,,,,,,,,001,2020_Feb_03_2125,ominoise_main,3.2.4,59.98056329851662,
condition 2,2,0,8,1,3,0,3,0,,,,,,,,,,,,,,,,,,001,2020_Feb_03_2125,ominoise_main,3.2.4,59.98056329851662,
condition 2,2,0,8,1,4,0,4,0,0,0,0,0,,,,,,,,,,,,,,001,2020_Feb_03_2125,ominoise_main,3.2.4,59.98056329851662,
condition 2,2,0,8,1,4,0,4,0,1,0,1,0,,,,,,,,,,,,,,001,2020_Feb_03_2125,ominoise_main,3.2.4,59.98056329851662,
condition 2,2,0,8,1,4,0,4,0,2,0,2,0,,,,,,,,,,,,,,001,2020_Feb_03_2125,ominoise_main,3.2.4,59.98056329851662,
condition 2,2,0,8,1,4,0,4,0,3,0,3,0,,,,,,,,,,,,,,001,2020_Feb_03_2125,ominoise_main,3.2.4,59.98056329851662,
condition 2,2,0,8,1,4,0,4,0,4,0,4,0,,,,,,,,,,,,,,001,2020_Feb_03_2125,ominoise_main,3.2.4,59.98056329851662,
condition 2,2,0,8,1,4,0,4,0,,,,,,,,,,,,,,,,,,001,2020_Feb_03_2125,ominoise_main,3.2.4,59.98056329851662,
condition 2,2,0,8,1,,,,,,,,,,,,,,,,,,,,,,001,2020_Feb_03_2125,ominoise_main,3.2.4,59.98056329851662,
condition 3,2,1,9,2,0,0,0,0,0,0,0,0,,,,,,,14.515687727000113,None,space,0.15035271099986858,14.515687727000113,None,,001,2020_Feb_03_2125,ominoise_main,3.2.4,59.98056329851662,
condition 3,2,1,9,2,0,0,0,0,1,0,1,0,,,,,,,,,,,,,,001,2020_Feb_03_2125,ominoise_main,3.2.4,59.98056329851662,
condition 3,2,1,9,2,0,0,0,0,2,0,2,0,,,,,,,,,,,,,,001,2020_Feb_03_2125,ominoise_main,3.2.4,59.98056329851662,
condition 3,2,1,9,2,0,0,0,0,3,0,3,0,,,,,,,,,,,,,,001,2020_Feb_03_2125,ominoise_main,3.2.4,59.98056329851662,
condition 3,2,1,9,2,0,0,0,0,4,0,4,0,,,,,,,,,,,,,,001,2020_Feb_03_2125,ominoise_main,3.2.4,59.98056329851662,
condition 3,2,1,9,2,0,0,0,0,,,,,,,,,,,,,,,,,,001,2020_Feb_03_2125,ominoise_main,3.2.4,59.98056329851662,
condition 3,2,1,9,2,1,0,1,0,0,0,0,0,,,,,,,,,,,,,,001,2020_Feb_03_2125,ominoise_main,3.2.4,59.98056329851662,
condition 3,2,1,9,2,1,0,1,0,1,0,1,0,,,,,,,,,,,,,,001,2020_Feb_03_2125,ominoise_main,3.2.4,59.98056329851662,
condition 3,2,1,9,2,1,0,1,0,2,0,2,0,,,,,,,,,,,,,,001,2020_Feb_03_2125,ominoise_main,3.2.4,59.98056329851662,
condition 3,2,1,9,2,1,0,1,0,3,0,3,0,,,,,,,,,,,,,,001,2020_Feb_03_2125,ominoise_main,3.2.4,59.98056329851662,
condition 3,2,1,9,2,1,0,1,0,4,0,4,0,,,,,,,,,,,,,,001,2020_Feb_03_2125,ominoise_main,3.2.4,59.98056329851662,
condition 3,2,1,9,2,1,0,1,0,,,,,,,,,,,,,,,,,,001,2020_Feb_03_2125,ominoise_main,3.2.4,59.98056329851662,
condition 3,2,1,9,2,2,0,2,0,0,0,0,0,,,,,,,,,,,,,,001,2020_Feb_03_2125,ominoise_main,3.2.4,59.98056329851662,
condition 3,2,1,9,2,2,0,2,0,1,0,1,0,,,,,,,,,,,,,,001,2020_Feb_03_2125,ominoise_main,3.2.4,59.98056329851662,
condition 3,2,1,9,2,2,0,2,0,2,0,2,0,,,,,,,,,,,,,,001,2020_Feb_03_2125,ominoise_main,3.2.4,59.98056329851662,
condition 3,2,1,9,2,2,0,2,0,3,0,3,0,,,,,,,,,,,,,,001,2020_Feb_03_2125,ominoise_main,3.2.4,59.98056329851662,
condition 3,2,1,9,2,2,0,2,0,4,0,4,0,,,,,,,,,,,,,,001,2020_Feb_03_2125,ominoise_main,3.2.4,59.98056329851662,
condition 3,2,1,9,2,2,0,2,0,,,,,,,,,,,,,,,,,,001,2020_Feb_03_2125,ominoise_main,3.2.4,59.98056329851662,
condition 3,2,1,9,2,3,0,3,0,0,0,0,0,,,,,,,,,,,,,,001,2020_Feb_03_2125,ominoise_main,3.2.4,59.98056329851662,
condition 3,2,1,9,2,3,0,3,0,1,0,1,0,,,,,,,,,,,,,,001,2020_Feb_03_2125,ominoise_main,3.2.4,59.98056329851662,
condition 3,2,1,9,2,3,0,3,0,2,0,2,0,,,,,,,,,,,,,,001,2020_Feb_03_2125,ominoise_main,3.2.4,59.98056329851662,
condition 3,2,1,9,2,3,0,3,0,3,0,3,0,,,,,,,,,,,,,,001,2020_Feb_03_2125,ominoise_main,3.2.4,59.98056329851662,
condition 3,2,1,9,2,3,0,3,0,4,0,4,0,,,,,,,,,,,,,,001,2020_Feb_03_2125,ominoise_main,3.2.4,59.98056329851662,
condition 3,2,1,9,2,3,0,3,0,,,,,,,,,,,,,,,,,,001,2020_Feb_03_2125,ominoise_main,3.2.4,59.98056329851662,
condition 3,2,1,9,2,4,0,4,0,0,0,0,0,,,,,,,,,,,,,,001,2020_Feb_03_2125,ominoise_main,3.2.4,59.98056329851662,
condition 3,2,1,9,2,4,0,4,0,1,0,1,0,,,,,,,,,,,,,,001,2020_Feb_03_2125,ominoise_main,3.2.4,59.98056329851662,
condition 3,2,1,9,2,4,0,4,0,2,0,2,0,,,,,,,,,,,,,,001,2020_Feb_03_2125,ominoise_main,3.2.4,59.98056329851662,
condition 3,2,1,9,2,4,0,4,0,3,0,3,0,,,,,,,,,,,,,,001,2020_Feb_03_2125,ominoise_main,3.2.4,59.98056329851662,
condition 3,2,1,9,2,4,0,4,0,4,0,4,0,,,,,,,,,,,,,,001,2020_Feb_03_2125,ominoise_main,3.2.4,59.98056329851662,
condition 3,2,1,9,2,4,0,4,0,,,,,,,,,,,,,,,,,,001,2020_Feb_03_2125,ominoise_main,3.2.4,59.98056329851662,
condition 3,2,1,9,2,,,,,,,,,,,,,,,,,,,,,,001,2020_Feb_03_2125,ominoise_main,3.2.4,59.98056329851662,
condition 4,2,2,10,3,0,0,0,0,0,0,0,0,,,,,,,14.715437808000388,None,space,0.13825214499956928,14.715437808000388,None,,001,2020_Feb_03_2125,ominoise_main,3.2.4,59.98056329851662,
condition 4,2,2,10,3,0,0,0,0,1,0,1,0,,,,,,,,,,,,,,001,2020_Feb_03_2125,ominoise_main,3.2.4,59.98056329851662,
condition 4,2,2,10,3,0,0,0,0,2,0,2,0,,,,,,,,,,,,,,001,2020_Feb_03_2125,ominoise_main,3.2.4,59.98056329851662,
condition 4,2,2,10,3,0,0,0,0,3,0,3,0,,,,,,,,,,,,,,001,2020_Feb_03_2125,ominoise_main,3.2.4,59.98056329851662,
condition 4,2,2,10,3,0,0,0,0,4,0,4,0,,,,,,,,,,,,,,001,2020_Feb_03_2125,ominoise_main,3.2.4,59.98056329851662,
condition 4,2,2,10,3,0,0,0,0,,,,,,,,,,,,,,,,,,001,2020_Feb_03_2125,ominoise_main,3.2.4,59.98056329851662,
condition 4,2,2,10,3,1,0,1,0,0,0,0,0,,,,,,,,,,,,,,001,2020_Feb_03_2125,ominoise_main,3.2.4,59.98056329851662,
condition 4,2,2,10,3,1,0,1,0,1,0,1,0,,,,,,,,,,,,,,001,2020_Feb_03_2125,ominoise_main,3.2.4,59.98056329851662,
condition 4,2,2,10,3,1,0,1,0,2,0,2,0,,,,,,,,,,,,,,001,2020_Feb_03_2125,ominoise_main,3.2.4,59.98056329851662,
condition 4,2,2,10,3,1,0,1,0,3,0,3,0,,,,,,,,,,,,,,001,2020_Feb_03_2125,ominoise_main,3.2.4,59.98056329851662,
condition 4,2,2,10,3,1,0,1,0,4,0,4,0,,,,,,,,,,,,,,001,2020_Feb_03_2125,ominoise_main,3.2.4,59.98056329851662,
condition 4,2,2,10,3,1,0,1,0,,,,,,,,,,,,,,,,,,001,2020_Feb_03_2125,ominoise_main,3.2.4,59.98056329851662,
condition 4,2,2,10,3,2,0,2,0,0,0,0,0,,,,,,,,,,,,,,001,2020_Feb_03_2125,ominoise_main,3.2.4,59.98056329851662,
condition 4,2,2,10,3,2,0,2,0,1,0,1,0,,,,,,,,,,,,,,001,2020_Feb_03_2125,ominoise_main,3.2.4,59.98056329851662,
condition 4,2,2,10,3,2,0,2,0,2,0,2,0,,,,,,,,,,,,,,001,2020_Feb_03_2125,ominoise_main,3.2.4,59.98056329851662,
condition 4,2,2,10,3,2,0,2,0,3,0,3,0,,,,,,,,,,,,,,001,2020_Feb_03_2125,ominoise_main,3.2.4,59.98056329851662,
condition 4,2,2,10,3,2,0,2,0,4,0,4,0,,,,,,,,,,,,,,001,2020_Feb_03_2125,ominoise_main,3.2.4,59.98056329851662,
condition 4,2,2,10,3,2,0,2,0,,,,,,,,,,,,,,,,,,001,2020_Feb_03_2125,ominoise_main,3.2.4,59.98056329851662,
condition 4,2,2,10,3,3,0,3,0,0,0,0,0,,,,,,,,,,,,,,001,2020_Feb_03_2125,ominoise_main,3.2.4,59.98056329851662,
condition 4,2,2,10,3,3,0,3,0,1,0,1,0,,,,,,,,,,,,,,001,2020_Feb_03_2125,ominoise_main,3.2.4,59.98056329851662,
condition 4,2,2,10,3,3,0,3,0,2,0,2,0,,,,,,,,,,,,,,001,2020_Feb_03_2125,ominoise_main,3.2.4,59.98056329851662,
condition 4,2,2,10,3,3,0,3,0,3,0,3,0,,,,,,,,,,,,,,001,2020_Feb_03_2125,ominoise_main,3.2.4,59.98056329851662,
condition 4,2,2,10,3,3,0,3,0,4,0,4,0,,,,,,,,,,,,,,001,2020_Feb_03_2125,ominoise_main,3.2.4,59.98056329851662,
condition 4,2,2,10,3,3,0,3,0,,,,,,,,,,,,,,,,,,001,2020_Feb_03_2125,ominoise_main,3.2.4,59.98056329851662,
condition 4,2,2,10,3,4,0,4,0,0,0,0,0,,,,,,,,,,,,,,001,2020_Feb_03_2125,ominoise_main,3.2.4,59.98056329851662,
condition 4,2,2,10,3,4,0,4,0,1,0,1,0,,,,,,,,,,,,,,001,2020_Feb_03_2125,ominoise_main,3.2.4,59.98056329851662,
condition 4,2,2,10,3,4,0,4,0,2,0,2,0,,,,,,,,,,,,,,001,2020_Feb_03_2125,ominoise_main,3.2.4,59.98056329851662,
condition 4,2,2,10,3,4,0,4,0,3,0,3,0,,,,,,,,,,,,,,001,2020_Feb_03_2125,ominoise_main,3.2.4,59.98056329851662,
condition 4,2,2,10,3,4,0,4,0,4,0,4,0,,,,,,,,,,,,,,001,2020_Feb_03_2125,ominoise_main,3.2.4,59.98056329851662,
condition 4,2,2,10,3,4,0,4,0,,,,,,,,,,,,,,,,,,001,2020_Feb_03_2125,ominoise_main,3.2.4,59.98056329851662,
condition 4,2,2,10,3,,,,,,,,,,,,,,,,,,,,,,001,2020_Feb_03_2125,ominoise_main,3.2.4,59.98056329851662,
condition 1,2,3,11,0,0,0,0,0,0,0,0,0,,,,,,,14.89899792200049,None,space,0.16705110899965803,14.89899792200049,None,,001,2020_Feb_03_2125,ominoise_main,3.2.4,59.98056329851662,
condition 1,2,3,11,0,0,0,0,0,1,0,1,0,,,,,,,,,,,,,,001,2020_Feb_03_2125,ominoise_main,3.2.4,59.98056329851662,
condition 1,2,3,11,0,0,0,0,0,2,0,2,0,,,,,,,,,,,,,,001,2020_Feb_03_2125,ominoise_main,3.2.4,59.98056329851662,
condition 1,2,3,11,0,0,0,0,0,3,0,3,0,,,,,,,,,,,,,,001,2020_Feb_03_2125,ominoise_main,3.2.4,59.98056329851662,
condition 1,2,3,11,0,0,0,0,0,4,0,4,0,,,,,,,,,,,,,,001,2020_Feb_03_2125,ominoise_main,3.2.4,59.98056329851662,
condition 1,2,3,11,0,0,0,0,0,,,,,,,,,,,,,,,,,,001,2020_Feb_03_2125,ominoise_main,3.2.4,59.98056329851662,
condition 1,2,3,11,0,1,0,1,0,0,0,0,0,,,,,,,,,,,,,,001,2020_Feb_03_2125,ominoise_main,3.2.4,59.98056329851662,
condition 1,2,3,11,0,1,0,1,0,1,0,1,0,,,,,,,,,,,,,,001,2020_Feb_03_2125,ominoise_main,3.2.4,59.98056329851662,
condition 1,2,3,11,0,1,0,1,0,2,0,2,0,,,,,,,,,,,,,,001,2020_Feb_03_2125,ominoise_main,3.2.4,59.98056329851662,
condition 1,2,3,11,0,1,0,1,0,3,0,3,0,,,,,,,,,,,,,,001,2020_Feb_03_2125,ominoise_main,3.2.4,59.98056329851662,
condition 1,2,3,11,0,1,0,1,0,4,0,4,0,,,,,,,,,,,,,,001,2020_Feb_03_2125,ominoise_main,3.2.4,59.98056329851662,
condition 1,2,3,11,0,1,0,1,0,,,,,,,,,,,,,,,,,,001,2020_Feb_03_2125,ominoise_main,3.2.4,59.98056329851662,
condition 1,2,3,11,0,2,0,2,0,0,0,0,0,,,,,,,,,,,,,,001,2020_Feb_03_2125,ominoise_main,3.2.4,59.98056329851662,
condition 1,2,3,11,0,2,0,2,0,1,0,1,0,,,,,,,,,,,,,,001,2020_Feb_03_2125,ominoise_main,3.2.4,59.98056329851662,
condition 1,2,3,11,0,2,0,2,0,2,0,2,0,,,,,,,,,,,,,,001,2020_Feb_03_2125,ominoise_main,3.2.4,59.98056329851662,
condition 1,2,3,11,0,2,0,2,0,3,0,3,0,,,,,,,,,,,,,,001,2020_Feb_03_2125,ominoise_main,3.2.4,59.98056329851662,
condition 1,2,3,11,0,2,0,2,0,4,0,4,0,,,,,,,,,,,,,,001,2020_Feb_03_2125,ominoise_main,3.2.4,59.98056329851662,
condition 1,2,3,11,0,2,0,2,0,,,,,,,,,,,,,,,,,,001,2020_Feb_03_2125,ominoise_main,3.2.4,59.98056329851662,
condition 1,2,3,11,0,3,0,3,0,0,0,0,0,,,,,,,,,,,,,,001,2020_Feb_03_2125,ominoise_main,3.2.4,59.98056329851662,
condition 1,2,3,11,0,3,0,3,0,1,0,1,0,,,,,,,,,,,,,,001,2020_Feb_03_2125,ominoise_main,3.2.4,59.98056329851662,
condition 1,2,3,11,0,3,0,3,0,2,0,2,0,,,,,,,,,,,,,,001,2020_Feb_03_2125,ominoise_main,3.2.4,59.98056329851662,
condition 1,2,3,11,0,3,0,3,0,3,0,3,0,,,,,,,,,,,,,,001,2020_Feb_03_2125,ominoise_main,3.2.4,59.98056329851662,
condition 1,2,3,11,0,3,0,3,0,4,0,4,0,,,,,,,,,,,,,,001,2020_Feb_03_2125,ominoise_main,3.2.4,59.98056329851662,
condition 1,2,3,11,0,3,0,3,0,,,,,,,,,,,,,,,,,,001,2020_Feb_03_2125,ominoise_main,3.2.4,59.98056329851662,
condition 1,2,3,11,0,4,0,4,0,0,0,0,0,,,,,,,,,,,,,,001,2020_Feb_03_2125,ominoise_main,3.2.4,59.98056329851662,
condition 1,2,3,11,0,4,0,4,0,1,0,1,0,,,,,,,,,,,,,,001,2020_Feb_03_2125,ominoise_main,3.2.4,59.98056329851662,
condition 1,2,3,11,0,4,0,4,0,2,0,2,0,,,,,,,,,,,,,,001,2020_Feb_03_2125,ominoise_main,3.2.4,59.98056329851662,
condition 1,2,3,11,0,4,0,4,0,3,0,3,0,,,,,,,,,,,,,,001,2020_Feb_03_2125,ominoise_main,3.2.4,59.98056329851662,
condition 1,2,3,11,0,4,0,4,0,4,0,4,0,,,,,,,,,,,,,,001,2020_Feb_03_2125,ominoise_main,3.2.4,59.98056329851662,
condition 1,2,3,11,0,4,0,4,0,,,,,,,,,,,,,,,,,,001,2020_Feb_03_2125,ominoise_main,3.2.4,59.98056329851662,
condition 1,2,3,11,0,,,,,,,,,,,,,,,,,,,,,,001,2020_Feb_03_2125,ominoise_main,3.2.4,59.98056329851662,
condition 2,3,0,12,1,0,0,0,0,0,0,0,0,,,,,,,15.115522798000711,None,space,0.150549625000167,15.115522798000711,None,,001,2020_Feb_03_2125,ominoise_main,3.2.4,59.98056329851662,
condition 2,3,0,12,1,0,0,0,0,1,0,1,0,,,,,,,,,,,,,,001,2020_Feb_03_2125,ominoise_main,3.2.4,59.98056329851662,
condition 2,3,0,12,1,0,0,0,0,2,0,2,0,,,,,,,,,,,,,,001,2020_Feb_03_2125,ominoise_main,3.2.4,59.98056329851662,
condition 2,3,0,12,1,0,0,0,0,3,0,3,0,,,,,,,,,,,,,,001,2020_Feb_03_2125,ominoise_main,3.2.4,59.98056329851662,
condition 2,3,0,12,1,0,0,0,0,4,0,4,0,,,,,,,,,,,,,,001,2020_Feb_03_2125,ominoise_main,3.2.4,59.98056329851662,
condition 2,3,0,12,1,0,0,0,0,,,,,,,,,,,,,,,,,,001,2020_Feb_03_2125,ominoise_main,3.2.4,59.98056329851662,
condition 2,3,0,12,1,1,0,1,0,0,0,0,0,,,,,,,,,,,,,,001,2020_Feb_03_2125,ominoise_main,3.2.4,59.98056329851662,
condition 2,3,0,12,1,1,0,1,0,1,0,1,0,,,,,,,,,,,,,,001,2020_Feb_03_2125,ominoise_main,3.2.4,59.98056329851662,
condition 2,3,0,12,1,1,0,1,0,2,0,2,0,,,,,,,,,,,,,,001,2020_Feb_03_2125,ominoise_main,3.2.4,59.98056329851662,
condition 2,3,0,12,1,1,0,1,0,3,0,3,0,,,,,,,,,,,,,,001,2020_Feb_03_2125,ominoise_main,3.2.4,59.98056329851662,
condition 2,3,0,12,1,1,0,1,0,4,0,4,0,,,,,,,,,,,,,,001,2020_Feb_03_2125,ominoise_main,3.2.4,59.98056329851662,
condition 2,3,0,12,1,1,0,1,0,,,,,,,,,,,,,,,,,,001,2020_Feb_03_2125,ominoise_main,3.2.4,59.98056329851662,
condition 2,3,0,12,1,2,0,2,0,0,0,0,0,,,,,,,,,,,,,,001,2020_Feb_03_2125,ominoise_main,3.2.4,59.98056329851662,
condition 2,3,0,12,1,2,0,2,0,1,0,1,0,,,,,,,,,,,,,,001,2020_Feb_03_2125,ominoise_main,3.2.4,59.98056329851662,
condition 2,3,0,12,1,2,0,2,0,2,0,2,0,,,,,,,,,,,,,,001,2020_Feb_03_2125,ominoise_main,3.2.4,59.98056329851662,
condition 2,3,0,12,1,2,0,2,0,3,0,3,0,,,,,,,,,,,,,,001,2020_Feb_03_2125,ominoise_main,3.2.4,59.98056329851662,
condition 2,3,0,12,1,2,0,2,0,4,0,4,0,,,,,,,,,,,,,,001,2020_Feb_03_2125,ominoise_main,3.2.4,59.98056329851662,
condition 2,3,0,12,1,2,0,2,0,,,,,,,,,,,,,,,,,,001,2020_Feb_03_2125,ominoise_main,3.2.4,59.98056329851662,
condition 2,3,0,12,1,3,0,3,0,0,0,0,0,,,,,,,,,,,,,,001,2020_Feb_03_2125,ominoise_main,3.2.4,59.98056329851662,
condition 2,3,0,12,1,3,0,3,0,1,0,1,0,,,,,,,,,,,,,,001,2020_Feb_03_2125,ominoise_main,3.2.4,59.98056329851662,
condition 2,3,0,12,1,3,0,3,0,2,0,2,0,,,,,,,,,,,,,,001,2020_Feb_03_2125,ominoise_main,3.2.4,59.98056329851662,
condition 2,3,0,12,1,3,0,3,0,3,0,3,0,,,,,,,,,,,,,,001,2020_Feb_03_2125,ominoise_main,3.2.4,59.98056329851662,
condition 2,3,0,12,1,3,0,3,0,4,0,4,0,,,,,,,,,,,,,,001,2020_Feb_03_2125,ominoise_main,3.2.4,59.98056329851662,
condition 2,3,0,12,1,3,0,3,0,,,,,,,,,,,,,,,,,,001,2020_Feb_03_2125,ominoise_main,3.2.4,59.98056329851662,
condition 2,3,0,12,1,4,0,4,0,0,0,0,0,,,,,,,,,,,,,,001,2020_Feb_03_2125,ominoise_main,3.2.4,59.98056329851662,
condition 2,3,0,12,1,4,0,4,0,1,0,1,0,,,,,,,,,,,,,,001,2020_Feb_03_2125,ominoise_main,3.2.4,59.98056329851662,
condition 2,3,0,12,1,4,0,4,0,2,0,2,0,,,,,,,,,,,,,,001,2020_Feb_03_2125,ominoise_main,3.2.4,59.98056329851662,
condition 2,3,0,12,1,4,0,4,0,3,0,3,0,,,,,,,,,,,,,,001,2020_Feb_03_2125,ominoise_main,3.2.4,59.98056329851662,
condition 2,3,0,12,1,4,0,4,0,4,0,4,0,,,,,,,,,,,,,,001,2020_Feb_03_2125,ominoise_main,3.2.4,59.98056329851662,
condition 2,3,0,12,1,4,0,4,0,,,,,,,,,,,,,,,,,,001,2020_Feb_03_2125,ominoise_main,3.2.4,59.98056329851662,
condition 2,3,0,12,1,,,,,,,,,,,,,,,,,,,,,,001,2020_Feb_03_2125,ominoise_main,3.2.4,59.98056329851662,
condition 4,3,1,13,3,0,0,0,0,0,0,0,0,,,,,,,15.315244338999946,None,space,0.13849828999991587,15.315244338999946,None,,001,2020_Feb_03_2125,ominoise_main,3.2.4,59.98056329851662,
condition 4,3,1,13,3,0,0,0,0,1,0,1,0,,,,,,,,,,,,,,001,2020_Feb_03_2125,ominoise_main,3.2.4,59.98056329851662,
condition 4,3,1,13,3,0,0,0,0,2,0,2,0,,,,,,,,,,,,,,001,2020_Feb_03_2125,ominoise_main,3.2.4,59.98056329851662,
condition 4,3,1,13,3,0,0,0,0,3,0,3,0,,,,,,,,,,,,,,001,2020_Feb_03_2125,ominoise_main,3.2.4,59.98056329851662,
condition 4,3,1,13,3,0,0,0,0,4,0,4,0,,,,,,,,,,,,,,001,2020_Feb_03_2125,ominoise_main,3.2.4,59.98056329851662,
condition 4,3,1,13,3,0,0,0,0,,,,,,,,,,,,,,,,,,001,2020_Feb_03_2125,ominoise_main,3.2.4,59.98056329851662,
condition 4,3,1,13,3,1,0,1,0,0,0,0,0,,,,,,,,,,,,,,001,2020_Feb_03_2125,ominoise_main,3.2.4,59.98056329851662,
condition 4,3,1,13,3,1,0,1,0,1,0,1,0,,,,,,,,,,,,,,001,2020_Feb_03_2125,ominoise_main,3.2.4,59.98056329851662,
condition 4,3,1,13,3,1,0,1,0,2,0,2,0,,,,,,,,,,,,,,001,2020_Feb_03_2125,ominoise_main,3.2.4,59.98056329851662,
condition 4,3,1,13,3,1,0,1,0,3,0,3,0,,,,,,,,,,,,,,001,2020_Feb_03_2125,ominoise_main,3.2.4,59.98056329851662,
condition 4,3,1,13,3,1,0,1,0,4,0,4,0,,,,,,,,,,,,,,001,2020_Feb_03_2125,ominoise_main,3.2.4,59.98056329851662,
condition 4,3,1,13,3,1,0,1,0,,,,,,,,,,,,,,,,,,001,2020_Feb_03_2125,ominoise_main,3.2.4,59.98056329851662,
condition 4,3,1,13,3,2,0,2,0,0,0,0,0,,,,,,,,,,,,,,001,2020_Feb_03_2125,ominoise_main,3.2.4,59.98056329851662,
condition 4,3,1,13,3,2,0,2,0,1,0,1,0,,,,,,,,,,,,,,001,2020_Feb_03_2125,ominoise_main,3.2.4,59.98056329851662,
condition 4,3,1,13,3,2,0,2,0,2,0,2,0,,,,,,,,,,,,,,001,2020_Feb_03_2125,ominoise_main,3.2.4,59.98056329851662,
condition 4,3,1,13,3,2,0,2,0,3,0,3,0,,,,,,,,,,,,,,001,2020_Feb_03_2125,ominoise_main,3.2.4,59.98056329851662,
condition 4,3,1,13,3,2,0,2,0,4,0,4,0,,,,,,,,,,,,,,001,2020_Feb_03_2125,ominoise_main,3.2.4,59.98056329851662,
condition 4,3,1,13,3,2,0,2,0,,,,,,,,,,,,,,,,,,001,2020_Feb_03_2125,ominoise_main,3.2.4,59.98056329851662,
condition 4,3,1,13,3,3,0,3,0,0,0,0,0,,,,,,,,,,,,,,001,2020_Feb_03_2125,ominoise_main,3.2.4,59.98056329851662,
condition 4,3,1,13,3,3,0,3,0,1,0,1,0,,,,,,,,,,,,,,001,2020_Feb_03_2125,ominoise_main,3.2.4,59.98056329851662,
condition 4,3,1,13,3,3,0,3,0,2,0,2,0,,,,,,,,,,,,,,001,2020_Feb_03_2125,ominoise_main,3.2.4,59.98056329851662,
condition 4,3,1,13,3,3,0,3,0,3,0,3,0,,,,,,,,,,,,,,001,2020_Feb_03_2125,ominoise_main,3.2.4,59.98056329851662,
condition 4,3,1,13,3,3,0,3,0,4,0,4,0,,,,,,,,,,,,,,001,2020_Feb_03_2125,ominoise_main,3.2.4,59.98056329851662,
condition 4,3,1,13,3,3,0,3,0,,,,,,,,,,,,,,,,,,001,2020_Feb_03_2125,ominoise_main,3.2.4,59.98056329851662,
condition 4,3,1,13,3,4,0,4,0,0,0,0,0,,,,,,,,,,,,,,001,2020_Feb_03_2125,ominoise_main,3.2.4,59.98056329851662,
condition 4,3,1,13,3,4,0,4,0,1,0,1,0,,,,,,,,,,,,,,001,2020_Feb_03_2125,ominoise_main,3.2.4,59.98056329851662,
condition 4,3,1,13,3,4,0,4,0,2,0,2,0,,,,,,,,,,,,,,001,2020_Feb_03_2125,ominoise_main,3.2.4,59.98056329851662,
condition 4,3,1,13,3,4,0,4,0,3,0,3,0,,,,,,,,,,,,,,001,2020_Feb_03_2125,ominoise_main,3.2.4,59.98056329851662,
condition 4,3,1,13,3,4,0,4,0,4,0,4,0,,,,,,,,,,,,,,001,2020_Feb_03_2125,ominoise_main,3.2.4,59.98056329851662,
condition 4,3,1,13,3,4,0,4,0,,,,,,,,,,,,,,,,,,001,2020_Feb_03_2125,ominoise_main,3.2.4,59.98056329851662,
condition 4,3,1,13,3,,,,,,,,,,,,,,,,,,,,,,001,2020_Feb_03_2125,ominoise_main,3.2.4,59.98056329851662,
condition 1,3,2,14,0,0,0,0,0,0,0,0,0,,,,,,,15.498141312999905,None,space,0.1555573400000867,15.498141312999905,None,,001,2020_Feb_03_2125,ominoise_main,3.2.4,59.98056329851662,
condition 1,3,2,14,0,0,0,0,0,1,0,1,0,,,,,,,,,,,,,,001,2020_Feb_03_2125,ominoise_main,3.2.4,59.98056329851662,
condition 1,3,2,14,0,0,0,0,0,2,0,2,0,,,,,,,,,,,,,,001,2020_Feb_03_2125,ominoise_main,3.2.4,59.98056329851662,
condition 1,3,2,14,0,0,0,0,0,3,0,3,0,,,,,,,,,,,,,,001,2020_Feb_03_2125,ominoise_main,3.2.4,59.98056329851662,
condition 1,3,2,14,0,0,0,0,0,4,0,4,0,,,,,,,,,,,,,,001,2020_Feb_03_2125,ominoise_main,3.2.4,59.98056329851662,
condition 1,3,2,14,0,0,0,0,0,,,,,,,,,,,,,,,,,,001,2020_Feb_03_2125,ominoise_main,3.2.4,59.98056329851662,
condition 1,3,2,14,0,1,0,1,0,0,0,0,0,,,,,,,,,,,,,,001,2020_Feb_03_2125,ominoise_main,3.2.4,59.98056329851662,
condition 1,3,2,14,0,1,0,1,0,1,0,1,0,,,,,,,,,,,,,,001,2020_Feb_03_2125,ominoise_main,3.2.4,59.98056329851662,
condition 1,3,2,14,0,1,0,1,0,2,0,2,0,,,,,,,,,,,,,,001,2020_Feb_03_2125,ominoise_main,3.2.4,59.98056329851662,
condition 1,3,2,14,0,1,0,1,0,3,0,3,0,,,,,,,,,,,,,,001,2020_Feb_03_2125,ominoise_main,3.2.4,59.98056329851662,
condition 1,3,2,14,0,1,0,1,0,4,0,4,0,,,,,,,,,,,,,,001,2020_Feb_03_2125,ominoise_main,3.2.4,59.98056329851662,
condition 1,3,2,14,0,1,0,1,0,,,,,,,,,,,,,,,,,,001,2020_Feb_03_2125,ominoise_main,3.2.4,59.98056329851662,
condition 1,3,2,14,0,2,0,2,0,0,0,0,0,,,,,,,,,,,,,,001,2020_Feb_03_2125,ominoise_main,3.2.4,59.98056329851662,
condition 1,3,2,14,0,2,0,2,0,1,0,1,0,,,,,,,,,,,,,,001,2020_Feb_03_2125,ominoise_main,3.2.4,59.98056329851662,
condition 1,3,2,14,0,2,0,2,0,2,0,2,0,,,,,,,,,,,,,,001,2020_Feb_03_2125,ominoise_main,3.2.4,59.98056329851662,
condition 1,3,2,14,0,2,0,2,0,3,0,3,0,,,,,,,,,,,,,,001,2020_Feb_03_2125,ominoise_main,3.2.4,59.98056329851662,
condition 1,3,2,14,0,2,0,2,0,4,0,4,0,,,,,,,,,,,,,,001,2020_Feb_03_2125,ominoise_main,3.2.4,59.98056329851662,
condition 1,3,2,14,0,2,0,2,0,,,,,,,,,,,,,,,,,,001,2020_Feb_03_2125,ominoise_main,3.2.4,59.98056329851662,
condition 1,3,2,14,0,3,0,3,0,0,0,0,0,,,,,,,,,,,,,,001,2020_Feb_03_2125,ominoise_main,3.2.4,59.98056329851662,
condition 1,3,2,14,0,3,0,3,0,1,0,1,0,,,,,,,,,,,,,,001,2020_Feb_03_2125,ominoise_main,3.2.4,59.98056329851662,
condition 1,3,2,14,0,3,0,3,0,2,0,2,0,,,,,,,,,,,,,,001,2020_Feb_03_2125,ominoise_main,3.2.4,59.98056329851662,
condition 1,3,2,14,0,3,0,3,0,3,0,3,0,,,,,,,,,,,,,,001,2020_Feb_03_2125,ominoise_main,3.2.4,59.98056329851662,
condition 1,3,2,14,0,3,0,3,0,4,0,4,0,,,,,,,,,,,,,,001,2020_Feb_03_2125,ominoise_main,3.2.4,59.98056329851662,
condition 1,3,2,14,0,3,0,3,0,,,,,,,,,,,,,,,,,,001,2020_Feb_03_2125,ominoise_main,3.2.4,59.98056329851662,
condition 1,3,2,14,0,4,0,4,0,0,0,0,0,,,,,,,,,,,,,,001,2020_Feb_03_2125,ominoise_main,3.2.4,59.98056329851662,
condition 1,3,2,14,0,4,0,4,0,1,0,1,0,,,,,,,,,,,,,,001,2020_Feb_03_2125,ominoise_main,3.2.4,59.98056329851662,
condition 1,3,2,14,0,4,0,4,0,2,0,2,0,,,,,,,,,,,,,,001,2020_Feb_03_2125,ominoise_main,3.2.4,59.98056329851662,
condition 1,3,2,14,0,4,0,4,0,3,0,3,0,,,,,,,,,,,,,,001,2020_Feb_03_2125,ominoise_main,3.2.4,59.98056329851662,
condition 1,3,2,14,0,4,0,4,0,4,0,4,0,,,,,,,,,,,,,,001,2020_Feb_03_2125,ominoise_main,3.2.4,59.98056329851662,
condition 1,3,2,14,0,4,0,4,0,,,,,,,,,,,,,,,,,,001,2020_Feb_03_2125,ominoise_main,3.2.4,59.98056329851662,
condition 1,3,2,14,0,,,,,,,,,,,,,,,,,,,,,,001,2020_Feb_03_2125,ominoise_main,3.2.4,59.98056329851662,
condition 3,3,3,15,2,0,0,0,0,0,0,0,0,,,,,,,15.698544251000385,None,space,0.15523161199962487,15.698544251000385,None,,001,2020_Feb_03_2125,ominoise_main,3.2.4,59.98056329851662,
condition 3,3,3,15,2,0,0,0,0,1,0,1,0,,,,,,,,,,,,,,001,2020_Feb_03_2125,ominoise_main,3.2.4,59.98056329851662,
condition 3,3,3,15,2,0,0,0,0,2,0,2,0,,,,,,,,,,,,,,001,2020_Feb_03_2125,ominoise_main,3.2.4,59.98056329851662,
condition 3,3,3,15,2,0,0,0,0,3,0,3,0,,,,,,,,,,,,,,001,2020_Feb_03_2125,ominoise_main,3.2.4,59.98056329851662,
condition 3,3,3,15,2,0,0,0,0,4,0,4,0,,,,,,,,,,,,,,001,2020_Feb_03_2125,ominoise_main,3.2.4,59.98056329851662,
condition 3,3,3,15,2,0,0,0,0,,,,,,,,,,,,,,,,,,001,2020_Feb_03_2125,ominoise_main,3.2.4,59.98056329851662,
condition 3,3,3,15,2,1,0,1,0,0,0,0,0,,,,,,,,,,,,,,001,2020_Feb_03_2125,ominoise_main,3.2.4,59.98056329851662,
condition 3,3,3,15,2,1,0,1,0,1,0,1,0,,,,,,,,,,,,,,001,2020_Feb_03_2125,ominoise_main,3.2.4,59.98056329851662,
condition 3,3,3,15,2,1,0,1,0,2,0,2,0,,,,,,,,,,,,,,001,2020_Feb_03_2125,ominoise_main,3.2.4,59.98056329851662,
condition 3,3,3,15,2,1,0,1,0,3,0,3,0,,,,,,,,,,,,,,001,2020_Feb_03_2125,ominoise_main,3.2.4,59.98056329851662,
condition 3,3,3,15,2,1,0,1,0,4,0,4,0,,,,,,,,,,,,,,001,2020_Feb_03_2125,ominoise_main,3.2.4,59.98056329851662,
condition 3,3,3,15,2,1,0,1,0,,,,,,,,,,,,,,,,,,001,2020_Feb_03_2125,ominoise_main,3.2.4,59.98056329851662,
condition 3,3,3,15,2,2,0,2,0,0,0,0,0,,,,,,,,,,,,,,001,2020_Feb_03_2125,ominoise_main,3.2.4,59.98056329851662,
condition 3,3,3,15,2,2,0,2,0,1,0,1,0,,,,,,,,,,,,,,001,2020_Feb_03_2125,ominoise_main,3.2.4,59.98056329851662,
condition 3,3,3,15,2,2,0,2,0,2,0,2,0,,,,,,,,,,,,,,001,2020_Feb_03_2125,ominoise_main,3.2.4,59.98056329851662,
condition 3,3,3,15,2,2,0,2,0,3,0,3,0,,,,,,,,,,,,,,001,2020_Feb_03_2125,ominoise_main,3.2.4,59.98056329851662,
condition 3,3,3,15,2,2,0,2,0,4,0,4,0,,,,,,,,,,,,,,001,2020_Feb_03_2125,ominoise_main,3.2.4,59.98056329851662,
condition 3,3,3,15,2,2,0,2,0,,,,,,,,,,,,,,,,,,001,2020_Feb_03_2125,ominoise_main,3.2.4,59.98056329851662,
condition 3,3,3,15,2,3,0,3,0,0,0,0,0,,,,,,,,,,,,,,001,2020_Feb_03_2125,ominoise_main,3.2.4,59.98056329851662,
condition 3,3,3,15,2,3,0,3,0,1,0,1,0,,,,,,,,,,,,,,001,2020_Feb_03_2125,ominoise_main,3.2.4,59.98056329851662,
condition 3,3,3,15,2,3,0,3,0,2,0,2,0,,,,,,,,,,,,,,001,2020_Feb_03_2125,ominoise_main,3.2.4,59.98056329851662,
condition 3,3,3,15,2,3,0,3,0,3,0,3,0,,,,,,,,,,,,,,001,2020_Feb_03_2125,ominoise_main,3.2.4,59.98056329851662,
condition 3,3,3,15,2,3,0,3,0,4,0,4,0,,,,,,,,,,,,,,001,2020_Feb_03_2125,ominoise_main,3.2.4,59.98056329851662,
condition 3,3,3,15,2,3,0,3,0,,,,,,,,,,,,,,,,,,001,2020_Feb_03_2125,ominoise_main,3.2.4,59.98056329851662,
condition 3,3,3,15,2,4,0,4,0,0,0,0,0,,,,,,,,,,,,,,001,2020_Feb_03_2125,ominoise_main,3.2.4,59.98056329851662,
condition 3,3,3,15,2,4,0,4,0,1,0,1,0,,,,,,,,,,,,,,001,2020_Feb_03_2125,ominoise_main,3.2.4,59.98056329851662,
condition 3,3,3,15,2,4,0,4,0,2,0,2,0,,,,,,,,,,,,,,001,2020_Feb_03_2125,ominoise_main,3.2.4,59.98056329851662,
condition 3,3,3,15,2,4,0,4,0,3,0,3,0,,,,,,,,,,,,,,001,2020_Feb_03_2125,ominoise_main,3.2.4,59.98056329851662,
condition 3,3,3,15,2,4,0,4,0,4,0,4,0,,,,,,,,,,,,,,001,2020_Feb_03_2125,ominoise_main,3.2.4,59.98056329851662,
condition 3,3,3,15,2,4,0,4,0,,,,,,,,,,,,,,,,,,001,2020_Feb_03_2125,ominoise_main,3.2.4,59.98056329851662,
condition 3,3,3,15,2,,,,,,,,,,,,,,,,,,,,,,001,2020_Feb_03_2125,ominoise_main,3.2.4,59.98056329851662,
